File: files/EwanZnO/znonanowires.txt
znonanowires.spc - RawData
"Wavelength nm.,""T%"""	Transmittance	Wavelength
"300.00,0.111"	0.111	300
"301.00,0.111"	0.111	301
"302.00,0.103"	0.103	302
"303.00,0.100"	0.1	303
"304.00,0.090"	0.09	304
"305.00,0.084"	0.084	305
"306.00,0.078"	0.078	306
"307.00,0.072"	0.072	307
"308.00,0.073"	0.073	308
"309.00,0.070"	0.07	309
"310.00,0.072"	0.072	310
"311.00,0.069"	0.069	311
"312.00,0.066"	0.066	312
"313.00,0.060"	0.06	313
"314.00,0.059"	0.059	314
"315.00,0.061"	0.061	315
"316.00,0.061"	0.061	316
"317.00,0.061"	0.061	317
"318.00,0.059"	0.059	318
"319.00,0.058"	0.058	319
"320.00,0.056"	0.056	320
"321.00,0.054"	0.054	321
"322.00,0.055"	0.055	322
"323.00,0.054"	0.054	323
"324.00,0.052"	0.052	324
"325.00,0.051"	0.051	325
"326.00,0.049"	0.049	326
"327.00,0.049"	0.049	327
"328.00,0.047"	0.047	328
"329.00,0.045"	0.045	329
"330.00,0.043"	0.043	330
"331.00,0.041"	0.041	331
"332.00,0.038"	0.038	332
"333.00,0.034"	0.034	333
"334.00,0.032"	0.032	334
"335.00,0.033"	0.033	335
"336.00,0.034"	0.034	336
"337.00,0.033"	0.033	337
"338.00,0.031"	0.031	338
"339.00,0.029"	0.029	339
"340.00,0.028"	0.028	340
"341.00,0.026"	0.026	341
"342.00,0.026"	0.026	342
"343.00,0.026"	0.026	343
"344.00,0.025"	0.025	344
"345.00,0.024"	0.024	345
"346.00,0.021"	0.021	346
"347.00,0.021"	0.021	347
"348.00,0.020"	0.02	348
"349.00,0.020"	0.02	349
"350.00,0.020"	0.02	350
"351.00,0.019"	0.019	351
"352.00,0.019"	0.019	352
"353.00,0.018"	0.018	353
"354.00,0.018"	0.018	354
"355.00,0.017"	0.017	355
"356.00,0.019"	0.019	356
"357.00,0.020"	0.02	357
"358.00,0.020"	0.02	358
"359.00,0.018"	0.018	359
"360.00,0.018"	0.018	360
"361.00,0.018"	0.018	361
"362.00,0.021"	0.021	362
"363.00,0.021"	0.021	363
"364.00,0.021"	0.021	364
"365.00,0.020"	0.02	365
"366.00,0.021"	0.021	366
"367.00,0.026"	0.026	367
"368.00,0.035"	0.035	368
"369.00,0.059"	0.059	369
"370.00,0.113"	0.113	370
"371.00,0.230"	0.23	371
"372.00,0.498"	0.498	372
"373.00,0.953"	0.953	373
"374.00,1.672"	1.672	374
"375.00,2.662"	2.662	375
"376.00,3.981"	3.981	376
"377.00,5.620"	5.62	377
"378.00,7.508"	7.508	378
"379.00,9.602"	9.602	379
"380.00,11.859"	11.859	380
"381.00,14.185"	14.185	381
"382.00,16.558"	16.558	382
"383.00,18.879"	18.879	383
"384.00,21.162"	21.162	384
"385.00,23.350"	23.35	385
"386.00,25.366"	25.366	386
"387.00,27.253"	27.253	387
"388.00,29.000"	29	388
"389.00,30.639"	30.639	389
"390.00,32.171"	32.171	390
"391.00,33.554"	33.554	391
"392.00,34.901"	34.901	392
"393.00,36.137"	36.137	393
"394.00,37.270"	37.27	394
"395.00,38.293"	38.293	395
"396.00,39.215"	39.215	396
"397.00,40.120"	40.12	397
"398.00,40.963"	40.963	398
"399.00,41.750"	41.75	399
"400.00,42.478"	42.478	400
"401.00,43.133"	43.133	401
"402.00,43.815"	43.815	402
"403.00,44.401"	44.401	403
"404.00,44.943"	44.943	404
"405.00,45.423"	45.423	405
"406.00,45.911"	45.911	406
"407.00,46.367"	46.367	407
"408.00,46.795"	46.795	408
"409.00,47.206"	47.206	409
"410.00,47.574"	47.574	410
"411.00,47.891"	47.891	411
"412.00,48.217"	48.217	412
"413.00,48.586"	48.586	413
"414.00,48.941"	48.941	414
"415.00,49.262"	49.262	415
"416.00,49.527"	49.527	416
"417.00,49.776"	49.776	417
"418.00,50.006"	50.006	418
"419.00,50.271"	50.271	419
"420.00,50.532"	50.532	420
"421.00,50.797"	50.797	421
"422.00,51.040"	51.04	422
"423.00,51.246"	51.246	423
"424.00,51.433"	51.433	424
"425.00,51.638"	51.638	425
"426.00,51.863"	51.863	426
"427.00,52.064"	52.064	427
"428.00,52.267"	52.267	428
"429.00,52.430"	52.43	429
"430.00,52.631"	52.631	430
"431.00,52.757"	52.757	431
"432.00,52.977"	52.977	432
"433.00,53.148"	53.148	433
"434.00,53.319"	53.319	434
"435.00,53.466"	53.466	435
"436.00,53.627"	53.627	436
"437.00,53.796"	53.796	437
"438.00,53.937"	53.937	438
"439.00,54.080"	54.08	439
"440.00,54.186"	54.186	440
"441.00,54.310"	54.31	441
"442.00,54.417"	54.417	442
"443.00,54.557"	54.557	443
"444.00,54.733"	54.733	444
"445.00,54.888"	54.888	445
"446.00,55.054"	55.054	446
"447.00,55.169"	55.169	447
"448.00,55.303"	55.303	448
"449.00,55.451"	55.451	449
"450.00,55.560"	55.56	450
"451.00,55.647"	55.647	451
"452.00,55.753"	55.753	452
"453.00,55.889"	55.889	453
"454.00,56.019"	56.019	454
"455.00,56.121"	56.121	455
"456.00,56.216"	56.216	456
"457.00,56.334"	56.334	457
"458.00,56.425"	56.425	458
"459.00,56.492"	56.492	459
"460.00,56.587"	56.587	460
"461.00,56.709"	56.709	461
"462.00,56.838"	56.838	462
"463.00,56.948"	56.948	463
"464.00,57.075"	57.075	464
"465.00,57.207"	57.207	465
"466.00,57.332"	57.332	466
"467.00,57.403"	57.403	467
"468.00,57.537"	57.537	468
"469.00,57.647"	57.647	469
"470.00,57.769"	57.769	470
"471.00,57.780"	57.78	471
"472.00,57.844"	57.844	472
"473.00,57.888"	57.888	473
"474.00,58.037"	58.037	474
"475.00,58.154"	58.154	475
"476.00,58.280"	58.28	476
"477.00,58.420"	58.42	477
"478.00,58.492"	58.492	478
"479.00,58.623"	58.623	479
"480.00,58.660"	58.66	480
"481.00,58.766"	58.766	481
"482.00,58.800"	58.8	482
"483.00,58.881"	58.881	483
"484.00,58.965"	58.965	484
"485.00,59.076"	59.076	485
"486.00,59.176"	59.176	486
"487.00,59.252"	59.252	487
"488.00,59.326"	59.326	488
"489.00,59.403"	59.403	489
"490.00,59.497"	59.497	490
"491.00,59.593"	59.593	491
"492.00,59.673"	59.673	492
"493.00,59.766"	59.766	493
"494.00,59.894"	59.894	494
"495.00,59.992"	59.992	495
"496.00,60.067"	60.067	496
"497.00,60.137"	60.137	497
"498.00,60.245"	60.245	498
"499.00,60.380"	60.38	499
"500.00,60.420"	60.42	500
"501.00,60.487"	60.487	501
"502.00,60.524"	60.524	502
"503.00,60.636"	60.636	503
"504.00,60.693"	60.693	504
"505.00,60.775"	60.775	505
"506.00,60.831"	60.831	506
"507.00,60.960"	60.96	507
"508.00,61.053"	61.053	508
"509.00,61.158"	61.158	509
"510.00,61.222"	61.222	510
"511.00,61.245"	61.245	511
"512.00,61.356"	61.356	512
"513.00,61.414"	61.414	513
"514.00,61.566"	61.566	514
"515.00,61.604"	61.604	515
"516.00,61.658"	61.658	516
"517.00,61.681"	61.681	517
"518.00,61.760"	61.76	518
"519.00,61.894"	61.894	519
"520.00,61.977"	61.977	520
"521.00,62.045"	62.045	521
"522.00,62.066"	62.066	522
"523.00,62.182"	62.182	523
"524.00,62.250"	62.25	524
"525.00,62.312"	62.312	525
"526.00,62.362"	62.362	526
"527.00,62.448"	62.448	527
"528.00,62.579"	62.579	528
"529.00,62.644"	62.644	529
"530.00,62.717"	62.717	530
"531.00,62.762"	62.762	531
"532.00,62.827"	62.827	532
"533.00,62.930"	62.93	533
"534.00,62.980"	62.98	534
"535.00,63.068"	63.068	535
"536.00,63.090"	63.09	536
"537.00,63.157"	63.157	537
"538.00,63.208"	63.208	538
"539.00,63.298"	63.298	539
"540.00,63.381"	63.381	540
"541.00,63.465"	63.465	541
"542.00,63.524"	63.524	542
"543.00,63.610"	63.61	543
"544.00,63.673"	63.673	544
"545.00,63.720"	63.72	545
"546.00,63.755"	63.755	546
"547.00,63.811"	63.811	547
"548.00,63.878"	63.878	548
"549.00,63.945"	63.945	549
"550.00,64.034"	64.034	550
"551.00,64.082"	64.082	551
"552.00,64.175"	64.175	552
"553.00,64.211"	64.211	553
"554.00,64.311"	64.311	554
"555.00,64.365"	64.365	555
"556.00,64.419"	64.419	556
"557.00,64.440"	64.44	557
"558.00,64.467"	64.467	558
"559.00,64.541"	64.541	559
"560.00,64.638"	64.638	560
"561.00,64.701"	64.701	561
"562.00,64.756"	64.756	562
"563.00,64.790"	64.79	563
"564.00,64.854"	64.854	564
"565.00,64.908"	64.908	565
"566.00,64.989"	64.989	566
"567.00,65.048"	65.048	567
"568.00,65.120"	65.12	568
"569.00,65.148"	65.148	569
"570.00,65.230"	65.23	570
"571.00,65.253"	65.253	571
"572.00,65.323"	65.323	572
"573.00,65.366"	65.366	573
"574.00,65.452"	65.452	574
"575.00,65.513"	65.513	575
"576.00,65.543"	65.543	576
"577.00,65.580"	65.58	577
"578.00,65.648"	65.648	578
"579.00,65.710"	65.71	579
"580.00,65.788"	65.788	580
"581.00,65.832"	65.832	581
"582.00,65.875"	65.875	582
"583.00,65.925"	65.925	583
"584.00,65.927"	65.927	584
"585.00,66.026"	66.026	585
"586.00,66.036"	66.036	586
"587.00,66.102"	66.102	587
"588.00,66.141"	66.141	588
"589.00,66.228"	66.228	589
"590.00,66.310"	66.31	590
"591.00,66.305"	66.305	591
"592.00,66.351"	66.351	592
"593.00,66.413"	66.413	593
"594.00,66.465"	66.465	594
"595.00,66.487"	66.487	595
"596.00,66.490"	66.49	596
"597.00,66.551"	66.551	597
"598.00,66.621"	66.621	598
"599.00,66.656"	66.656	599
"600.00,66.697"	66.697	600
"601.00,66.733"	66.733	601
"602.00,66.805"	66.805	602
"603.00,66.850"	66.85	603
"604.00,66.908"	66.908	604
"605.00,66.936"	66.936	605
"606.00,66.949"	66.949	606
"607.00,66.953"	66.953	607
"608.00,67.015"	67.015	608
"609.00,67.079"	67.079	609
"610.00,67.135"	67.135	610
"611.00,67.188"	67.188	611
"612.00,67.225"	67.225	612
"613.00,67.314"	67.314	613
"614.00,67.336"	67.336	614
"615.00,67.423"	67.423	615
"616.00,67.455"	67.455	616
"617.00,67.471"	67.471	617
"618.00,67.507"	67.507	618
"619.00,67.516"	67.516	619
"620.00,67.598"	67.598	620
"621.00,67.605"	67.605	621
"622.00,67.633"	67.633	622
"623.00,67.663"	67.663	623
"624.00,67.713"	67.713	624
"625.00,67.793"	67.793	625
"626.00,67.844"	67.844	626
"627.00,67.886"	67.886	627
"628.00,67.939"	67.939	628
"629.00,67.969"	67.969	629
"630.00,68.015"	68.015	630
"631.00,68.033"	68.033	631
"632.00,68.084"	68.084	632
"633.00,68.136"	68.136	633
"634.00,68.187"	68.187	634
"635.00,68.229"	68.229	635
"636.00,68.254"	68.254	636
"637.00,68.258"	68.258	637
"638.00,68.317"	68.317	638
"639.00,68.356"	68.356	639
"640.00,68.399"	68.399	640
"641.00,68.363"	68.363	641
"642.00,68.406"	68.406	642
"643.00,68.473"	68.473	643
"644.00,68.558"	68.558	644
"645.00,68.627"	68.627	645
"646.00,68.652"	68.652	646
"647.00,68.663"	68.663	647
"648.00,68.660"	68.66	648
"649.00,68.695"	68.695	649
"650.00,68.784"	68.784	650
"651.00,68.843"	68.843	651
"652.00,68.882"	68.882	652
"653.00,68.890"	68.89	653
"654.00,68.900"	68.9	654
"655.00,68.926"	68.926	655
"656.00,68.935"	68.935	656
"657.00,68.999"	68.999	657
"658.00,69.033"	69.033	658
"659.00,69.089"	69.089	659
"660.00,69.082"	69.082	660
"661.00,69.142"	69.142	661
"662.00,69.153"	69.153	662
"663.00,69.244"	69.244	663
"664.00,69.195"	69.195	664
"665.00,69.267"	69.267	665
"666.00,69.253"	69.253	666
"667.00,69.306"	69.306	667
"668.00,69.334"	69.334	668
"669.00,69.357"	69.357	669
"670.00,69.446"	69.446	670
"671.00,69.506"	69.506	671
"672.00,69.575"	69.575	672
"673.00,69.577"	69.577	673
"674.00,69.557"	69.557	674
"675.00,69.602"	69.602	675
"676.00,69.640"	69.64	676
"677.00,69.655"	69.655	677
"678.00,69.712"	69.712	678
"679.00,69.759"	69.759	679
"680.00,69.792"	69.792	680
"681.00,69.759"	69.759	681
"682.00,69.759"	69.759	682
"683.00,69.820"	69.82	683
"684.00,69.845"	69.845	684
"685.00,69.891"	69.891	685
"686.00,69.882"	69.882	686
"687.00,69.955"	69.955	687
"688.00,69.996"	69.996	688
"689.00,70.016"	70.016	689
"690.00,70.046"	70.046	690
"691.00,70.072"	70.072	691
"692.00,70.135"	70.135	692
"693.00,70.121"	70.121	693
"694.00,70.151"	70.151	694
"695.00,70.149"	70.149	695
"696.00,70.171"	70.171	696
"697.00,70.182"	70.182	697
"698.00,70.285"	70.285	698
"699.00,70.347"	70.347	699
"700.00,70.405"	70.405	700
"701.00,70.400"	70.4	701
"702.00,70.460"	70.46	702
"703.00,70.474"	70.474	703
"704.00,70.486"	70.486	704
"705.00,70.481"	70.481	705
"706.00,70.504"	70.504	706
"707.00,70.531"	70.531	707
"708.00,70.464"	70.464	708
"709.00,70.453"	70.453	709
"710.00,70.409"	70.409	710
"711.00,70.483"	70.483	711
"712.00,70.502"	70.502	712
"713.00,70.607"	70.607	713
"714.00,70.666"	70.666	714
"715.00,70.693"	70.693	715
"716.00,70.716"	70.716	716
"717.00,70.680"	70.68	717
"718.00,70.701"	70.701	718
"719.00,70.716"	70.716	719
"720.00,70.760"	70.76	720
"721.00,70.848"	70.848	721
"722.00,70.883"	70.883	722
"723.00,70.959"	70.959	723
"724.00,70.971"	70.971	724
"725.00,71.030"	71.03	725
"726.00,71.068"	71.068	726
"727.00,71.013"	71.013	727
"728.00,71.004"	71.004	728
"729.00,70.955"	70.955	729
"730.00,71.033"	71.033	730
"731.00,71.010"	71.01	731
"732.00,71.058"	71.058	732
"733.00,71.080"	71.08	733
"734.00,71.131"	71.131	734
"735.00,71.166"	71.166	735
"736.00,71.198"	71.198	736
"737.00,71.194"	71.194	737
"738.00,71.211"	71.211	738
"739.00,71.157"	71.157	739
"740.00,71.178"	71.178	740
"741.00,71.214"	71.214	741
"742.00,71.272"	71.272	742
"743.00,71.351"	71.351	743
"744.00,71.381"	71.381	744
"745.00,71.391"	71.391	745
"746.00,71.375"	71.375	746
"747.00,71.400"	71.4	747
"748.00,71.406"	71.406	748
"749.00,71.422"	71.422	749
"750.00,71.387"	71.387	750
"751.00,71.421"	71.421	751
"752.00,71.445"	71.445	752
"753.00,71.441"	71.441	753
"754.00,71.508"	71.508	754
"755.00,71.536"	71.536	755
"756.00,71.606"	71.606	756
"757.00,71.564"	71.564	757
"758.00,71.539"	71.539	758
"759.00,71.477"	71.477	759
"760.00,71.489"	71.489	760
"761.00,71.511"	71.511	761
"762.00,71.647"	71.647	762
"763.00,71.668"	71.668	763
"764.00,71.724"	71.724	764
"765.00,71.661"	71.661	765
"766.00,71.701"	71.701	766
"767.00,71.666"	71.666	767
"768.00,71.730"	71.73	768
"769.00,71.730"	71.73	769
"770.00,71.739"	71.739	770
"771.00,71.717"	71.717	771
"772.00,71.741"	71.741	772
"773.00,71.754"	71.754	773
"774.00,71.734"	71.734	774
"775.00,71.812"	71.812	775
"776.00,71.829"	71.829	776
"777.00,71.889"	71.889	777
"778.00,71.864"	71.864	778
"779.00,71.886"	71.886	779
"780.00,71.880"	71.88	780
"781.00,71.883"	71.883	781
"782.00,71.894"	71.894	782
"783.00,72.000"	72	783
"784.00,71.991"	71.991	784
"785.00,71.970"	71.97	785
"786.00,71.832"	71.832	786
"787.00,71.826"	71.826	787
"788.00,71.864"	71.864	788
"789.00,71.952"	71.952	789
"790.00,72.014"	72.014	790
"791.00,72.093"	72.093	791
"792.00,72.065"	72.065	792
"793.00,72.053"	72.053	793
"794.00,72.027"	72.027	794
"795.00,72.080"	72.08	795
"796.00,72.150"	72.15	796
"797.00,72.201"	72.201	797
"798.00,72.132"	72.132	798
"799.00,72.124"	72.124	799
"800.00,72.038"	72.038	800
"801.00,72.106"	72.106	801
"802.00,72.034"	72.034	802
"803.00,72.094"	72.094	803
"804.00,72.094"	72.094	804
"805.00,72.129"	72.129	805
"806.00,72.105"	72.105	806
"807.00,72.140"	72.14	807
"808.00,72.055"	72.055	808
"809.00,72.167"	72.167	809
"810.00,72.178"	72.178	810
"811.00,72.316"	72.316	811
"812.00,72.210"	72.21	812
"813.00,72.181"	72.181	813
"814.00,72.131"	72.131	814
"815.00,72.230"	72.23	815
"816.00,72.268"	72.268	816
"817.00,72.294"	72.294	817
"818.00,72.295"	72.295	818
"819.00,72.400"	72.4	819
"820.00,72.418"	72.418	820
"821.00,72.510"	72.51	821
"822.00,72.485"	72.485	822
"823.00,72.457"	72.457	823
"824.00,72.234"	72.234	824
"825.00,72.175"	72.175	825
"826.00,72.113"	72.113	826
"827.00,72.203"	72.203	827
"828.00,72.281"	72.281	828
"829.00,72.426"	72.426	829
"830.00,72.331"	72.331	830
"831.00,72.110"	72.11	831
"832.00,72.007"	72.007	832
"833.00,71.886"	71.886	833
"834.00,71.815"	71.815	834
"835.00,71.841"	71.841	835
"836.00,71.935"	71.935	836
"837.00,72.023"	72.023	837
"838.00,71.976"	71.976	838
"839.00,72.059"	72.059	839
"840.00,72.171"	72.171	840
"841.00,72.098"	72.098	841
"842.00,72.021"	72.021	842
"843.00,71.880"	71.88	843
"844.00,71.920"	71.92	844
"845.00,71.974"	71.974	845
"846.00,71.988"	71.988	846
"847.00,72.051"	72.051	847
"848.00,72.084"	72.084	848
"849.00,72.154"	72.154	849
"850.00,72.050"	72.05	850
"851.00,71.988"	71.988	851
"852.00,71.919"	71.919	852
"853.00,71.957"	71.957	853
"854.00,71.983"	71.983	854
"855.00,72.061"	72.061	855
"856.00,72.133"	72.133	856
"857.00,72.207"	72.207	857
"858.00,72.197"	72.197	858
"859.00,72.162"	72.162	859
"860.00,72.149"	72.149	860
"861.00,72.127"	72.127	861
"862.00,72.163"	72.163	862
"863.00,71.977"	71.977	863
"864.00,71.982"	71.982	864
"865.00,71.993"	71.993	865
"866.00,72.172"	72.172	866
"867.00,72.166"	72.166	867
"868.00,72.151"	72.151	868
"869.00,72.160"	72.16	869
"870.00,72.192"	72.192	870
"871.00,72.243"	72.243	871
"872.00,72.223"	72.223	872
"873.00,72.213"	72.213	873
"874.00,72.211"	72.211	874
"875.00,72.185"	72.185	875
"876.00,72.305"	72.305	876
"877.00,72.226"	72.226	877
"878.00,72.338"	72.338	878
"879.00,72.264"	72.264	879
"880.00,72.286"	72.286	880
"881.00,72.090"	72.09	881
"882.00,72.145"	72.145	882
"883.00,72.149"	72.149	883
"884.00,72.264"	72.264	884
"885.00,72.184"	72.184	885
"886.00,72.269"	72.269	886
"887.00,72.249"	72.249	887
"888.00,72.265"	72.265	888
"889.00,72.253"	72.253	889
"890.00,72.316"	72.316	890
"891.00,72.363"	72.363	891
"892.00,72.322"	72.322	892
"893.00,72.293"	72.293	893
"894.00,72.287"	72.287	894
"895.00,72.302"	72.302	895
"896.00,72.315"	72.315	896
"897.00,72.220"	72.22	897
"898.00,72.154"	72.154	898
"899.00,72.100"	72.1	899
"900.00,72.114"	72.114	900
"901.00,72.159"	72.159	901
"902.00,72.249"	72.249	902
"903.00,72.307"	72.307	903
"904.00,72.401"	72.401	904
"905.00,72.342"	72.342	905
"906.00,72.289"	72.289	906
"907.00,72.200"	72.2	907
"908.00,72.224"	72.224	908
"909.00,72.193"	72.193	909
"910.00,72.210"	72.21	910
"911.00,72.192"	72.192	911
"912.00,72.207"	72.207	912
"913.00,72.133"	72.133	913
"914.00,72.078"	72.078	914
"915.00,72.127"	72.127	915
"916.00,72.196"	72.196	916
"917.00,72.244"	72.244	917
"918.00,72.229"	72.229	918
"919.00,72.256"	72.256	919
"920.00,72.213"	72.213	920
"921.00,72.248"	72.248	921
"922.00,72.198"	72.198	922
"923.00,72.217"	72.217	923
"924.00,72.168"	72.168	924
"925.00,72.113"	72.113	925
"926.00,72.098"	72.098	926
"927.00,72.138"	72.138	927
"928.00,72.188"	72.188	928
"929.00,72.179"	72.179	929
"930.00,72.147"	72.147	930
"931.00,72.112"	72.112	931
"932.00,72.140"	72.14	932
"933.00,72.136"	72.136	933
"934.00,72.172"	72.172	934
"935.00,72.148"	72.148	935
"936.00,72.130"	72.13	936
"937.00,72.112"	72.112	937
"938.00,72.129"	72.129	938
"939.00,72.160"	72.16	939
"940.00,72.128"	72.128	940
"941.00,72.099"	72.099	941
"942.00,72.043"	72.043	942
"943.00,72.059"	72.059	943
"944.00,72.030"	72.03	944
"945.00,72.023"	72.023	945
"946.00,72.025"	72.025	946
"947.00,72.061"	72.061	947
"948.00,72.099"	72.099	948
"949.00,72.099"	72.099	949
"950.00,72.066"	72.066	950
"951.00,72.029"	72.029	951
"952.00,71.985"	71.985	952
"953.00,72.007"	72.007	953
"954.00,72.078"	72.078	954
"955.00,72.084"	72.084	955
"956.00,72.086"	72.086	956
"957.00,72.029"	72.029	957
"958.00,72.043"	72.043	958
"959.00,72.008"	72.008	959
"960.00,71.948"	71.948	960
"961.00,71.898"	71.898	961
"962.00,71.926"	71.926	962
"963.00,71.929"	71.929	963
"964.00,71.961"	71.961	964
"965.00,71.904"	71.904	965
"966.00,71.958"	71.958	966
"967.00,71.989"	71.989	967
"968.00,71.974"	71.974	968
"969.00,71.929"	71.929	969
"970.00,71.892"	71.892	970
"971.00,71.953"	71.953	971
"972.00,71.935"	71.935	972
"973.00,71.905"	71.905	973
"974.00,71.917"	71.917	974
"975.00,71.918"	71.918	975
"976.00,71.954"	71.954	976
"977.00,71.922"	71.922	977
"978.00,71.931"	71.931	978
"979.00,71.905"	71.905	979
"980.00,71.886"	71.886	980
"981.00,71.855"	71.855	981
"982.00,71.845"	71.845	982
"983.00,71.813"	71.813	983
"984.00,71.829"	71.829	984
"985.00,71.833"	71.833	985
"986.00,71.833"	71.833	986
"987.00,71.820"	71.82	987
"988.00,71.774"	71.774	988
"989.00,71.757"	71.757	989
"990.00,71.725"	71.725	990
"991.00,71.715"	71.715	991
"992.00,71.720"	71.72	992
"993.00,71.681"	71.681	993
"994.00,71.685"	71.685	994
"995.00,71.634"	71.634	995
"996.00,71.662"	71.662	996
"997.00,71.607"	71.607	997
"998.00,71.575"	71.575	998
"999.00,71.543"	71.543	999
"1000.00,71.510"	71.51	1000
"1001.00,71.519"	71.519	1001
"1002.00,71.457"	71.457	1002
"1003.00,71.448"	71.448	1003
"1004.00,71.414"	71.414	1004
"1005.00,71.414"	71.414	1005
"1006.00,71.408"	71.408	1006
"1007.00,71.401"	71.401	1007
"1008.00,71.387"	71.387	1008
"1009.00,71.385"	71.385	1009
"1010.00,71.333"	71.333	1010
"1011.00,71.300"	71.3	1011
"1012.00,71.287"	71.287	1012
"1013.00,71.284"	71.284	1013
"1014.00,71.236"	71.236	1014
"1015.00,71.176"	71.176	1015
"1016.00,71.104"	71.104	1016
"1017.00,71.126"	71.126	1017
"1018.00,71.107"	71.107	1018
"1019.00,71.144"	71.144	1019
"1020.00,71.125"	71.125	1020
"1021.00,71.093"	71.093	1021
"1022.00,71.041"	71.041	1022
"1023.00,71.048"	71.048	1023
"1024.00,71.028"	71.028	1024
"1025.00,71.034"	71.034	1025
"1026.00,70.943"	70.943	1026
"1027.00,70.935"	70.935	1027
"1028.00,70.946"	70.946	1028
"1029.00,70.974"	70.974	1029
"1030.00,70.959"	70.959	1030
"1031.00,70.915"	70.915	1031
"1032.00,70.916"	70.916	1032
"1033.00,70.897"	70.897	1033
"1034.00,70.851"	70.851	1034
"1035.00,70.807"	70.807	1035
"1036.00,70.818"	70.818	1036
"1037.00,70.823"	70.823	1037
"1038.00,70.834"	70.834	1038
"1039.00,70.786"	70.786	1039
"1040.00,70.748"	70.748	1040
"1041.00,70.741"	70.741	1041
"1042.00,70.733"	70.733	1042
"1043.00,70.745"	70.745	1043
"1044.00,70.705"	70.705	1044
"1045.00,70.696"	70.696	1045
"1046.00,70.647"	70.647	1046
"1047.00,70.635"	70.635	1047
"1048.00,70.608"	70.608	1048
"1049.00,70.626"	70.626	1049
"1050.00,70.577"	70.577	1050
"1051.00,70.573"	70.573	1051
"1052.00,70.567"	70.567	1052
"1053.00,70.579"	70.579	1053
"1054.00,70.540"	70.54	1054
"1055.00,70.518"	70.518	1055
"1056.00,70.533"	70.533	1056
"1057.00,70.533"	70.533	1057
"1058.00,70.538"	70.538	1058
"1059.00,70.499"	70.499	1059
"1060.00,70.499"	70.499	1060
"1061.00,70.454"	70.454	1061
"1062.00,70.432"	70.432	1062
"1063.00,70.397"	70.397	1063
"1064.00,70.407"	70.407	1064
"1065.00,70.391"	70.391	1065
"1066.00,70.362"	70.362	1066
"1067.00,70.360"	70.36	1067
"1068.00,70.351"	70.351	1068
"1069.00,70.373"	70.373	1069
"1070.00,70.331"	70.331	1070
"1071.00,70.297"	70.297	1071
"1072.00,70.333"	70.333	1072
"1073.00,70.325"	70.325	1073
"1074.00,70.270"	70.27	1074
"1075.00,70.190"	70.19	1075
"1076.00,70.161"	70.161	1076
"1077.00,70.164"	70.164	1077
"1078.00,70.113"	70.113	1078
"1079.00,70.049"	70.049	1079
"1080.00,70.052"	70.052	1080
"1081.00,70.053"	70.053	1081
"1082.00,70.057"	70.057	1082
"1083.00,70.050"	70.05	1083
"1084.00,70.017"	70.017	1084
"1085.00,69.932"	69.932	1085
"1086.00,69.906"	69.906	1086
"1087.00,69.871"	69.871	1087
"1088.00,69.918"	69.918	1088
"1089.00,69.842"	69.842	1089
"1090.00,69.851"	69.851	1090
"1091.00,69.825"	69.825	1091
"1092.00,69.823"	69.823	1092
"1093.00,69.767"	69.767	1093
"1094.00,69.719"	69.719	1094
"1095.00,69.683"	69.683	1095
"1096.00,69.653"	69.653	1096
"1097.00,69.599"	69.599	1097
"1098.00,69.551"	69.551	1098
"1099.00,69.495"	69.495	1099
"1100.00,69.471"	69.471	1100
"1101.00,69.435"	69.435	1101
"1102.00,69.434"	69.434	1102
"1103.00,69.388"	69.388	1103
"1104.00,69.325"	69.325	1104
"1105.00,69.260"	69.26	1105
"1106.00,69.239"	69.239	1106
"1107.00,69.215"	69.215	1107
"1108.00,69.210"	69.21	1108
"1109.00,69.162"	69.162	1109
"1110.00,69.124"	69.124	1110
"1111.00,69.073"	69.073	1111
"1112.00,69.015"	69.015	1112
"1113.00,68.963"	68.963	1113
"1114.00,68.913"	68.913	1114
"1115.00,68.890"	68.89	1115
"1116.00,68.886"	68.886	1116
"1117.00,68.811"	68.811	1117
"1118.00,68.738"	68.738	1118
"1119.00,68.635"	68.635	1119
"1120.00,68.579"	68.579	1120
"1121.00,68.568"	68.568	1121
"1122.00,68.567"	68.567	1122
"1123.00,68.525"	68.525	1123
"1124.00,68.455"	68.455	1124
"1125.00,68.391"	68.391	1125
"1126.00,68.372"	68.372	1126
"1127.00,68.347"	68.347	1127
"1128.00,68.317"	68.317	1128
"1129.00,68.285"	68.285	1129
"1130.00,68.238"	68.238	1130
"1131.00,68.154"	68.154	1131
"1132.00,68.116"	68.116	1132
"1133.00,68.052"	68.052	1133
"1134.00,68.053"	68.053	1134
"1135.00,68.024"	68.024	1135
"1136.00,68.041"	68.041	1136
"1137.00,68.004"	68.004	1137
"1138.00,67.877"	67.877	1138
"1139.00,67.817"	67.817	1139
"1140.00,67.784"	67.784	1140
"1141.00,67.778"	67.778	1141
"1142.00,67.672"	67.672	1142
"1143.00,67.610"	67.61	1143
"1144.00,67.527"	67.527	1144
"1145.00,67.510"	67.51	1145
"1146.00,67.447"	67.447	1146
"1147.00,67.462"	67.462	1147
"1148.00,67.421"	67.421	1148
"1149.00,67.392"	67.392	1149
"1150.00,67.324"	67.324	1150
"1151.00,67.250"	67.25	1151
"1152.00,67.214"	67.214	1152
"1153.00,67.207"	67.207	1153
"1154.00,67.175"	67.175	1154
"1155.00,67.180"	67.18	1155
"1156.00,67.134"	67.134	1156
"1157.00,67.147"	67.147	1157
"1158.00,67.079"	67.079	1158
"1159.00,67.043"	67.043	1159
"1160.00,67.018"	67.018	1160
"1161.00,67.018"	67.018	1161
"1162.00,66.972"	66.972	1162
"1163.00,66.920"	66.92	1163
"1164.00,66.821"	66.821	1164
"1165.00,66.798"	66.798	1165
"1166.00,66.727"	66.727	1166
"1167.00,66.712"	66.712	1167
"1168.00,66.724"	66.724	1168
"1169.00,66.717"	66.717	1169
"1170.00,66.702"	66.702	1170
"1171.00,66.644"	66.644	1171
"1172.00,66.639"	66.639	1172
"1173.00,66.617"	66.617	1173
"1174.00,66.572"	66.572	1174
"1175.00,66.513"	66.513	1175
"1176.00,66.426"	66.426	1176
"1177.00,66.376"	66.376	1177
"1178.00,66.372"	66.372	1178
"1179.00,66.407"	66.407	1179
"1180.00,66.372"	66.372	1180
"1181.00,66.313"	66.313	1181
"1182.00,66.235"	66.235	1182
"1183.00,66.203"	66.203	1183
"1184.00,66.184"	66.184	1184
"1185.00,66.200"	66.2	1185
"1186.00,66.256"	66.256	1186
"1187.00,66.233"	66.233	1187
"1188.00,66.179"	66.179	1188
"1189.00,66.069"	66.069	1189
"1190.00,66.070"	66.07	1190
"1191.00,66.040"	66.04	1191
"1192.00,66.028"	66.028	1192
"1193.00,65.935"	65.935	1193
"1194.00,65.877"	65.877	1194
"1195.00,65.816"	65.816	1195
"1196.00,65.786"	65.786	1196
"1197.00,65.757"	65.757	1197
"1198.00,65.720"	65.72	1198
"1199.00,65.654"	65.654	1199
"1200.00,65.648"	65.648	1200
"1201.00,65.646"	65.646	1201
"1202.00,65.666"	65.666	1202
"1203.00,65.644"	65.644	1203
"1204.00,65.599"	65.599	1204
"1205.00,65.541"	65.541	1205
"1206.00,65.465"	65.465	1206
"1207.00,65.450"	65.45	1207
"1208.00,65.398"	65.398	1208
"1209.00,65.398"	65.398	1209
"1210.00,65.317"	65.317	1210
"1211.00,65.254"	65.254	1211
"1212.00,65.151"	65.151	1212
"1213.00,65.074"	65.074	1213
"1214.00,65.084"	65.084	1214
"1215.00,65.090"	65.09	1215
"1216.00,65.054"	65.054	1216
"1217.00,64.938"	64.938	1217
"1218.00,64.800"	64.8	1218
"1219.00,64.754"	64.754	1219
"1220.00,64.762"	64.762	1220
"1221.00,64.737"	64.737	1221
"1222.00,64.695"	64.695	1222
"1223.00,64.613"	64.613	1223
"1224.00,64.549"	64.549	1224
"1225.00,64.502"	64.502	1225
"1226.00,64.414"	64.414	1226
"1227.00,64.305"	64.305	1227
"1228.00,64.248"	64.248	1228
"1229.00,64.233"	64.233	1229
"1230.00,64.223"	64.223	1230
"1231.00,64.129"	64.129	1231
"1232.00,64.036"	64.036	1232
"1233.00,63.950"	63.95	1233
"1234.00,63.896"	63.896	1234
"1235.00,63.874"	63.874	1235
"1236.00,63.814"	63.814	1236
"1237.00,63.746"	63.746	1237
"1238.00,63.612"	63.612	1238
"1239.00,63.557"	63.557	1239
"1240.00,63.483"	63.483	1240
"1241.00,63.373"	63.373	1241
"1242.00,63.316"	63.316	1242
"1243.00,63.248"	63.248	1243
"1244.00,63.224"	63.224	1244
"1245.00,63.085"	63.085	1245
"1246.00,62.995"	62.995	1246
"1247.00,62.868"	62.868	1247
"1248.00,62.834"	62.834	1248
"1249.00,62.781"	62.781	1249
"1250.00,62.761"	62.761	1250
"1251.00,62.640"	62.64	1251
"1252.00,62.513"	62.513	1252
"1253.00,62.366"	62.366	1253
"1254.00,62.310"	62.31	1254
"1255.00,62.235"	62.235	1255
"1256.00,62.224"	62.224	1256
"1257.00,62.159"	62.159	1257
"1258.00,62.063"	62.063	1258
"1259.00,61.945"	61.945	1259
"1260.00,61.844"	61.844	1260
"1261.00,61.746"	61.746	1261
"1262.00,61.640"	61.64	1262
"1263.00,61.537"	61.537	1263
"1264.00,61.505"	61.505	1264
"1265.00,61.480"	61.48	1265
"1266.00,61.431"	61.431	1266
"1267.00,61.339"	61.339	1267
"1268.00,61.156"	61.156	1268
"1269.00,61.026"	61.026	1269
"1270.00,60.888"	60.888	1270
"1271.00,60.859"	60.859	1271
"1272.00,60.763"	60.763	1272
"1273.00,60.685"	60.685	1273
"1274.00,60.588"	60.588	1274
"1275.00,60.549"	60.549	1275
"1276.00,60.492"	60.492	1276
"1277.00,60.380"	60.38	1277
"1278.00,60.257"	60.257	1278
"1279.00,60.103"	60.103	1279
"1280.00,60.072"	60.072	1280
"1281.00,59.972"	59.972	1281
"1282.00,59.908"	59.908	1282
"1283.00,59.773"	59.773	1283
"1284.00,59.686"	59.686	1284
"1285.00,59.608"	59.608	1285
"1286.00,59.500"	59.5	1286
"1287.00,59.405"	59.405	1287
"1288.00,59.361"	59.361	1288
"1289.00,59.317"	59.317	1289
"1290.00,59.207"	59.207	1290
"1291.00,59.068"	59.068	1291
"1292.00,59.020"	59.02	1292
"1293.00,58.945"	58.945	1293
"1294.00,58.835"	58.835	1294
"1295.00,58.693"	58.693	1295
"1296.00,58.623"	58.623	1296
"1297.00,58.560"	58.56	1297
"1298.00,58.466"	58.466	1298
"1299.00,58.400"	58.4	1299
"1300.00,58.327"	58.327	1300
"1301.00,58.281"	58.281	1301
"1302.00,58.245"	58.245	1302
"1303.00,58.161"	58.161	1303
"1304.00,58.100"	58.1	1304
"1305.00,57.958"	57.958	1305
"1306.00,57.855"	57.855	1306
"1307.00,57.729"	57.729	1307
"1308.00,57.699"	57.699	1308
"1309.00,57.639"	57.639	1309
"1310.00,57.534"	57.534	1310
"1311.00,57.457"	57.457	1311
"1312.00,57.365"	57.365	1312
"1313.00,57.394"	57.394	1313
"1314.00,57.307"	57.307	1314
"1315.00,57.283"	57.283	1315
"1316.00,57.148"	57.148	1316
"1317.00,57.081"	57.081	1317
"1318.00,56.973"	56.973	1318
"1319.00,56.905"	56.905	1319
"1320.00,56.900"	56.9	1320
"1321.00,56.868"	56.868	1321
"1322.00,56.805"	56.805	1322
"1323.00,56.682"	56.682	1323
"1324.00,56.626"	56.626	1324
"1325.00,56.616"	56.616	1325
"1326.00,56.545"	56.545	1326
"1327.00,56.432"	56.432	1327
"1328.00,56.322"	56.322	1328
"1329.00,56.293"	56.293	1329
"1330.00,56.317"	56.317	1330
"1331.00,56.261"	56.261	1331
"1332.00,56.160"	56.16	1332
"1333.00,56.071"	56.071	1333
"1334.00,56.042"	56.042	1334
"1335.00,55.983"	55.983	1335
"1336.00,55.949"	55.949	1336
"1337.00,55.904"	55.904	1337
"1338.00,55.817"	55.817	1338
"1339.00,55.760"	55.76	1339
"1340.00,55.665"	55.665	1340
"1341.00,55.694"	55.694	1341
"1342.00,55.585"	55.585	1342
"1343.00,55.520"	55.52	1343
"1344.00,55.457"	55.457	1344
"1345.00,55.468"	55.468	1345
"1346.00,55.413"	55.413	1346
"1347.00,55.329"	55.329	1347
"1348.00,55.189"	55.189	1348
"1349.00,55.134"	55.134	1349
"1350.00,55.063"	55.063	1350
"1351.00,55.055"	55.055	1351
"1352.00,55.003"	55.003	1352
"1353.00,54.962"	54.962	1353
"1354.00,54.952"	54.952	1354
"1355.00,54.949"	54.949	1355
"1356.00,54.872"	54.872	1356
"1357.00,54.812"	54.812	1357
"1358.00,54.618"	54.618	1358
"1359.00,54.550"	54.55	1359
"1360.00,54.514"	54.514	1360
"1361.00,54.560"	54.56	1361
"1362.00,54.514"	54.514	1362
"1363.00,54.344"	54.344	1363
"1364.00,54.295"	54.295	1364
"1365.00,54.264"	54.264	1365
"1366.00,54.179"	54.179	1366
"1367.00,54.172"	54.172	1367
"1368.00,54.087"	54.087	1368
"1369.00,54.138"	54.138	1369
"1370.00,54.088"	54.088	1370
"1371.00,54.079"	54.079	1371
"1372.00,53.978"	53.978	1372
"1373.00,53.810"	53.81	1373
"1374.00,53.723"	53.723	1374
"1375.00,53.689"	53.689	1375
"1376.00,53.564"	53.564	1376
"1377.00,53.507"	53.507	1377
"1378.00,53.372"	53.372	1378
"1379.00,53.359"	53.359	1379
"1380.00,53.280"	53.28	1380
"1381.00,53.286"	53.286	1381
"1382.00,53.203"	53.203	1382
"1383.00,53.166"	53.166	1383
"1384.00,53.100"	53.1	1384
"1385.00,53.000"	53	1385
"1386.00,52.924"	52.924	1386
"1387.00,52.792"	52.792	1387
"1388.00,52.809"	52.809	1388
"1389.00,52.634"	52.634	1389
"1390.00,52.494"	52.494	1390
"1391.00,52.395"	52.395	1391
"1392.00,52.263"	52.263	1392
"1393.00,52.206"	52.206	1393
"1394.00,52.025"	52.025	1394
"1395.00,52.040"	52.04	1395
"1396.00,52.075"	52.075	1396
"1397.00,51.989"	51.989	1397
"1398.00,51.831"	51.831	1398
"1399.00,51.644"	51.644	1399
"1400.00,51.645"	51.645	1400